I[mA], U[mV]
241, 44.8
242, 40.8
243, 46.8
244, 45.0
245, 49.4
246, 42.4
247, 43.7
248, 45.2
249, 56.1
250, 55.1
251, 52.6
252, 49.2
253, 55.6
254, 59.4
255, 53.3
256, 60.1
257, 60.3
258, 59.9
259, 59.7
260, 60.4
261, 63.0
262, 63.3
263, 65.5
264, 74.7
265, 72.4
266, 77.9
267, 76.5
268, 81.3
269, 80.0
270, 80.1
271, 96.0
272, 99.9
273, 101
274, 103
275, 117
276, 120
277, 130
278, 139
279, 144
280, 160
281, 168
282, 181
283, 195
284, 208
285, 228
286, 260
287, 290
288, 320
289, 347
290, 350
291, 445
292, 511
293, 567
294, 659
295, 751
296, 860
297, 997
298, 1110
299, 1240
300, 1380
301, 1410
302, 1420
303, 1290
304, 1110
305, 1030
306, 704
307, 385
308, 280
309, -260
310, -660
311, -860
312, -1110
313, -1260
314, -1370
315, -1400
316, -1360
317, -1250
318, -1080
319, -1060
320, -900
321, -760
322, -640
323, -574
324, -479
325, -403
326, -336
327, -301
328, -259
329, -220
330, -175
331, -162
332, -131
333, -120
334, -103
335, -89.2
336, -77.1
337, -60.1
338, -51.3
339, -42.1
340, -40.9
341, -30.1
342, -20.8
343, -17.6
344, -18.4
345, -12.8
346, -9.66
347, -7.95
348, -1.02
349, -1.10
350, 2.03
351, 5.71
352, 11.3
353, 6.01
354, 12.5
355, 17.8
